File: 47-Black(1).txt
/////////////////////////////////////////////////////////////////////////////////
/// Profile Data Ascii Dump (XRD)                                             ///
/////////////////////////////////////////////////////////////////////////////////

  Group     : Fom
  Data      : K3PO4-47-Bott
  File Name : K3PO4-47-Bott.RAW

# Data      [ Total No. = 2501 ]
  <2Theta>   <   I   >
    10.0000        68
    10.0400        80
    10.0800        80
    10.1200        72
    10.1600        74
    10.2000        66
    10.2400        82
    10.2800        68
    10.3200        86
    10.3600        78
    10.4000        60
    10.4400        66
    10.4800        70
    10.5200        82
    10.5600        70
    10.6000        68
    10.6400        88
    10.6800        78
    10.7200        66
    10.7600        54
    10.8000        58
    10.8400        54
    10.8800        52
    10.9200        80
    10.9600        76
    11.0000        90
    11.0400        92
    11.0800        96
    11.1200        66
    11.1600        54
    11.2000        58
    11.2400        54
    11.2800        62
    11.3200        56
    11.3600        72
    11.4000        58
    11.4400        66
    11.4800        60
    11.5200        54
    11.5600        60
    11.6000        62
    11.6400        60
    11.6800        50
    11.7200        64
    11.7600        60
    11.8000        56
    11.8400        60
    11.8800        56
    11.9200        54
    11.9600        54
    12.0000        40
    12.0400        56
    12.0800        58
    12.1200        64
    12.1600        50
    12.2000        80
    12.2400        60
    12.2800        52
    12.3200        54
    12.3600        42
    12.4000        58
    12.4400        58
    12.4800        48
    12.5200        54
    12.5600        50
    12.6000        70
    12.6400        58
    12.6800        62
    12.7200        50
    12.7600        44
    12.8000        52
    12.8400        50
    12.8800        42
    12.9200        56
    12.9600        44
    13.0000        44
    13.0400        52
    13.0800        44
    13.1200        52
    13.1600        56
    13.2000        54
    13.2400        50
    13.2800        52
    13.3200        52
    13.3600        50
    13.4000        52
    13.4400        44
    13.4800        50
    13.5200        48
    13.5600        54
    13.6000        46
    13.6400        40
    13.6800        42
    13.7200        36
    13.7600        40
    13.8000        48
    13.8400        44
    13.8800        46
    13.9200        48
    13.9600        48
    14.0000        38
    14.0400        42
    14.0800        40
    14.1200        52
    14.1600        48
    14.2000        50
    14.2400        30
    14.2800        42
    14.3200        34
    14.3600        32
    14.4000        46
    14.4400        54
    14.4800        32
    14.5200        32
    14.5600        50
    14.6000        40
    14.6400        32
    14.6800        36
    14.7200        42
    14.7600        36
    14.8000        44
    14.8400        42
    14.8800        44
    14.9200        32
    14.9600        40
    15.0000        40
    15.0400        48
    15.0800        36
    15.1200        52
    15.1600        52
    15.2000        56
    15.2400        64
    15.2800        48
    15.3200        74
    15.3600        68
    15.4000        92
    15.4400       120
    15.4800       176
    15.5200       252
    15.5600       352
    15.6000       444
    15.6400       328
    15.6800       142
    15.7200       102
    15.7600        66
    15.8000        54
    15.8400        46
    15.8800        54
    15.9200        34
    15.9600        34
    16.0000        44
    16.0400        40
    16.0800        38
    16.1200        42
    16.1600        36
    16.2000        38
    16.2400        42
    16.2800        42
    16.3200        48
    16.3600        38
    16.4000        46
    16.4400        44
    16.4800        28
    16.5200        38
    16.5600        36
    16.6000        36
    16.6400        36
    16.6800        44
    16.7200        38
    16.7600        42
    16.8000        36
    16.8400        38
    16.8800        34
    16.9200        24
    16.9600        48
    17.0000        42
    17.0400        42
    17.0800        68
    17.1200        56
    17.1600        64
    17.2000        68
    17.2400        80
    17.2800        84
    17.3200       106
    17.3600       156
    17.4000       228
    17.4400       344
    17.4800       424
    17.5200       342
    17.5600       178
    17.6000        84
    17.6400        56
    17.6800        58
    17.7200        54
    17.7600        44
    17.8000        46
    17.8400        40
    17.8800        38
    17.9200        34
    17.9600        34
    18.0000        46
    18.0400        36
    18.0800        60
    18.1200        42
    18.1600        36
    18.2000        32
    18.2400        34
    18.2800        32
    18.3200        36
    18.3600        36
    18.4000        40
    18.4400        36
    18.4800        38
    18.5200        36
    18.5600        40
    18.6000        34
    18.6400        30
    18.6800        28
    18.7200        40
    18.7600        32
    18.8000        24
    18.8400        46
    18.8800        38
    18.9200        30
    18.9600        48
    19.0000        42
    19.0400        34
    19.0800        36
    19.1200        28
    19.1600        40
    19.2000        40
    19.2400        36
    19.2800        38
    19.3200        34
    19.3600        40
    19.4000        24
    19.4400        34
    19.4800        34
    19.5200        34
    19.5600        40
    19.6000        36
    19.6400        44
    19.6800        38
    19.7200        58
    19.7600        40
    19.8000        34
    19.8400        46
    19.8800        28
    19.9200        28
    19.9600        32
    20.0000        38
    20.0400        46
    20.0800        46
    20.1200        24
    20.1600        32
    20.2000        36
    20.2400        20
    20.2800        28
    20.3200        32
    20.3600        22
    20.4000        34
    20.4400        34
    20.4800        28
    20.5200        30
    20.5600        40
    20.6000        22
    20.6400        28
    20.6800        30
    20.7200        24
    20.7600        38
    20.8000        28
    20.8400        24
    20.8800        36
    20.9200        28
    20.9600        20
    21.0000        32
    21.0400        20
    21.0800        16
    21.1200        26
    21.1600        20
    21.2000        24
    21.2400        34
    21.2800        32
    21.3200        32
    21.3600        34
    21.4000        32
    21.4400        28
    21.4800        20
    21.5200        10
    21.5600        32
    21.6000        26
    21.6400        32
    21.6800        34
    21.7200        34
    21.7600        30
    21.8000        34
    21.8400        26
    21.8800        30
    21.9200        32
    21.9600        38
    22.0000        30
    22.0400        46
    22.0800        56
    22.1200        50
    22.1600        96
    22.2000       130
    22.2400       136
    22.2800       108
    22.3200        70
    22.3600        44
    22.4000        40
    22.4400        40
    22.4800        26
    22.5200        24
    22.5600        34
    22.6000        36
    22.6400        22
    22.6800        34
    22.7200        28
    22.7600        32
    22.8000        22
    22.8400        28
    22.8800        26
    22.9200        22
    22.9600        40
    23.0000        16
    23.0400        24
    23.0800        24
    23.1200        28
    23.1600        26
    23.2000        34
    23.2400        18
    23.2800        30
    23.3200        20
    23.3600        24
    23.4000        36
    23.4400        36
    23.4800        30
    23.5200        28
    23.5600        24
    23.6000        20
    23.6400        14
    23.6800        26
    23.7200        22
    23.7600        22
    23.8000        26
    23.8400        26
    23.8800        20
    23.9200        32
    23.9600        24
    24.0000        32
    24.0400        16
    24.0800        36
    24.1200        32
    24.1600        22
    24.2000        24
    24.2400        30
    24.2800        40
    24.3200        42
    24.3600        52
    24.4000        84
    24.4400        86
    24.4800        88
    24.5200        78
    24.5600        70
    24.6000        92
    24.6400       126
    24.6800       162
    24.7200       282
    24.7600       478
    24.8000       730
    24.8400       804
    24.8800       666
    24.9200       464
    24.9600       278
    25.0000       252
    25.0400       166
    25.0800       106
    25.1200        44
    25.1600        54
    25.2000        42
    25.2400        34
    25.2800        18
    25.3200        32
    25.3600        34
    25.4000        20
    25.4400        22
    25.4800        36
    25.5200        26
    25.5600        34
    25.6000        60
    25.6400        54
    25.6800        86
    25.7200        70
    25.7600        58
    25.8000        32
    25.8400        28
    25.8800        34
    25.9200        26
    25.9600        20
    26.0000        18
    26.0400        22
    26.0800        18
    26.1200        16
    26.1600        20
    26.2000        18
    26.2400        16
    26.2800         8
    26.3200        16
    26.3600        20
    26.4000        22
    26.4400        28
    26.4800        22
    26.5200        20
    26.5600        16
    26.6000        18
    26.6400        18
    26.6800        20
    26.7200        24
    26.7600        24
    26.8000        10
    26.8400        18
    26.8800        14
    26.9200        24
    26.9600        18
    27.0000        18
    27.0400        14
    27.0800        16
    27.1200        14
    27.1600        14
    27.2000        18
    27.2400        22
    27.2800        20
    27.3200        14
    27.3600        20
    27.4000        16
    27.4400        14
    27.4800        24
    27.5200        20
    27.5600        16
    27.6000        18
    27.6400        18
    27.6800        24
    27.7200        18
    27.7600        26
    27.8000        38
    27.8400        30
    27.8800        24
    27.9200        36
    27.9600        54
    28.0000        60
    28.0400        54
    28.0800        68
    28.1200        46
    28.1600        42
    28.2000        26
    28.2400        38
    28.2800        52
    28.3200        70
    28.3600       112
    28.4000       188
    28.4400       208
    28.4800       190
    28.5200       132
    28.5600       116
    28.6000        60
    28.6400        36
    28.6800        44
    28.7200        30
    28.7600        50
    28.8000        52
    28.8400        48
    28.8800        38
    28.9200        38
    28.9600        50
    29.0000        58
    29.0400        82
    29.0800       116
    29.1200       166
    29.1600       270
    29.2000       266
    29.2400       196
    29.2800       142
    29.3200        84
    29.3600        60
    29.4000        50
    29.4400        26
    29.4800        22
    29.5200        22
    29.5600        12
    29.6000        14
    29.6400        16
    29.6800        12
    29.7200        18
    29.7600        18
    29.8000        12
    29.8400        12
    29.8800        18
    29.9200        10
    29.9600        16
    30.0000        16
    30.0400        16
    30.0800        14
    30.1200        14
    30.1600        16
    30.2000        14
    30.2400        16
    30.2800        16
    30.3200        16
    30.3600        14
    30.4000        26
    30.4400        38
    30.4800        30
    30.5200        20
    30.5600        20
    30.6000        14
    30.6400        20
    30.6800        12
    30.7200        12
    30.7600        20
    30.8000        16
    30.8400        12
    30.8800        12
    30.9200        14
    30.9600        20
    31.0000        22
    31.0400        18
    31.0800        12
    31.1200        16
    31.1600        14
    31.2000        10
    31.2400        14
    31.2800        14
    31.3200        14
    31.3600        12
    31.4000         8
    31.4400        16
    31.4800        18
    31.5200        24
    31.5600        22
    31.6000        24
    31.6400        22
    31.6800        16
    31.7200        16
    31.7600        12
    31.8000        20
    31.8400        26
    31.8800        26
    31.9200        18
    31.9600        28
    32.0000        24
    32.0400        26
    32.0800        34
    32.1200        48
    32.1600        82
    32.2000       116
    32.2400       208
    32.2800       284
    32.3200       266
    32.3600       250
    32.4000       142
    32.4400        94
    32.4800        64
    32.5200        38
    32.5600        38
    32.6000        24
    32.6400        22
    32.6800        34
    32.7200        28
    32.7600        24
    32.8000        30
    32.8400        26
    32.8800        20
    32.9200        16
    32.9600        16
    33.0000        20
    33.0400        20
    33.0800        14
    33.1200        22
    33.1600        16
    33.2000        30
    33.2400        34
    33.2800        62
    33.3200        90
    33.3600       100
    33.4000        84
    33.4400        68
    33.4800        50
    33.5200        30
    33.5600        32
    33.6000        28
    33.6400        28
    33.6800        24
    33.7200        26
    33.7600        14
    33.8000        12
    33.8400        14
    33.8800         8
    33.9200        14
    33.9600        20
    34.0000        14
    34.0400        22
    34.0800        18
    34.1200        28
    34.1600        26
    34.2000        42
    34.2400        46
    34.2800        50
    34.3200        60
    34.3600        58
    34.4000        52
    34.4400        32
    34.4800        16
    34.5200        12
    34.5600        10
    34.6000        14
    34.6400        14
    34.6800        14
    34.7200         4
    34.7600        14
    34.8000        16
    34.8400        16
    34.8800        10
    34.9200         8
    34.9600        10
    35.0000        12
    35.0400        14
    35.0800        24
    35.1200        26
    35.1600        22
    35.2000        24
    35.2400        36
    35.2800        48
    35.3200        86
    35.3600       124
    35.4000       222
    35.4400       366
    35.4800       336
    35.5200       302
    35.5600       240
    35.6000       154
    35.6400        96
    35.6800        78
    35.7200        42
    35.7600        36
    35.8000        18
    35.8400        20
    35.8800        12
    35.9200        10
    35.9600        10
    36.0000        10
    36.0400        10
    36.0800        14
    36.1200        10
    36.1600         6
    36.2000        12
    36.2400         8
    36.2800         8
    36.3200         6
    36.3600        18
    36.4000        10
    36.4400         6
    36.4800        12
    36.5200        10
    36.5600        14
    36.6000         8
    36.6400        12
    36.6800        12
    36.7200        18
    36.7600        12
    36.8000        20
    36.8400        30
    36.8800        40
    36.9200        42
    36.9600        76
    37.0000        70
    37.0400        80
    37.0800        52
    37.1200        28
    37.1600        22
    37.2000        18
    37.2400        12
    37.2800         6
    37.3200         8
    37.3600         8
    37.4000        10
    37.4400        12
    37.4800        12
    37.5200        18
    37.5600        10
    37.6000        16
    37.6400         8
    37.6800        10
    37.7200         6
    37.7600        12
    37.8000         8
    37.8400         4
    37.8800         8
    37.9200         6
    37.9600         8
    38.0000        10
    38.0400         6
    38.0800         4
    38.1200        12
    38.1600         6
    38.2000        14
    38.2400         6
    38.2800         6
    38.3200         8
    38.3600        10
    38.4000         6
    38.4400        10
    38.4800         8
    38.5200        12
    38.5600        10
    38.6000        10
    38.6400         8
    38.6800         8
    38.7200         2
    38.7600        12
    38.8000         8
    38.8400         4
    38.8800         8
    38.9200        10
    38.9600        14
    39.0000         8
    39.0400        18
    39.0800        14
    39.1200        10
    39.1600        16
    39.2000        16
    39.2400        16
    39.2800        20
    39.3200        28
    39.3600        34
    39.4000        52
    39.4400        62
    39.4800       126
    39.5200       132
    39.5600       128
    39.6000        88
    39.6400        78
    39.6800        52
    39.7200        28
    39.7600        38
    39.8000        30
    39.8400        48
    39.8800        52
    39.9200        56
    39.9600        62
    40.0000        56
    40.0400        46
    40.0800        40
    40.1200        38
    40.1600        30
    40.2000        38
    40.2400        64
    40.2800       116
    40.3200       142
    40.3600       144
    40.4000       152
    40.4400       104
    40.4800        92
    40.5200        68
    40.5600        48
    40.6000        38
    40.6400        26
    40.6800        20
    40.7200        16
    40.7600        16
    40.8000        24
    40.8400        22
    40.8800        14
    40.9200        22
    40.9600        20
    41.0000        14
    41.0400         8
    41.0800        16
    41.1200        18
    41.1600         8
    41.2000        16
    41.2400        18
    41.2800        16
    41.3200        18
    41.3600        16
    41.4000        16
    41.4400         8
    41.4800        16
    41.5200        10
    41.5600        12
    41.6000        10
    41.6400         6
    41.6800         8
    41.7200         4
    41.7600         6
    41.8000        10
    41.8400         8
    41.8800         4
    41.9200        14
    41.9600        14
    42.0000         6
    42.0400         8
    42.0800         6
    42.1200         8
    42.1600         4
    42.2000        10
    42.2400        12
    42.2800        12
    42.3200        10
    42.3600        12
    42.4000        14
    42.4400         6
    42.4800        10
    42.5200        16
    42.5600        10
    42.6000        12
    42.6400        20
    42.6800        22
    42.7200        30
    42.7600        28
    42.8000        54
    42.8400        54
    42.8800        88
    42.9200        84
    42.9600       130
    43.0000       166
    43.0400       184
    43.0800       154
    43.1200       118
    43.1600        90
    43.2000        76
    43.2400        50
    43.2800        54
    43.3200        46
    43.3600        18
    43.4000        26
    43.4400        14
    43.4800        12
    43.5200        10
    43.5600        10
    43.6000         8
    43.6400        10
    43.6800        12
    43.7200        10
    43.7600         8
    43.8000         4
    43.8400         8
    43.8800         8
    43.9200         8
    43.9600         8
    44.0000        12
    44.0400         8
    44.0800        10
    44.1200         8
    44.1600         8
    44.2000         6
    44.2400         2
    44.2800         6
    44.3200         6
    44.3600        10
    44.4000         4
    44.4400        10
    44.4800         4
    44.5200         6
    44.5600         8
    44.6000         8
    44.6400         6
    44.6800         4
    44.7200        10
    44.7600         4
    44.8000         8
    44.8400         6
    44.8800         6
    44.9200        10
    44.9600         6
    45.0000        14
    45.0400         6
    45.0800        10
    45.1200        10
    45.1600         8
    45.2000        10
    45.2400         8
    45.2800        20
    45.3200        18
    45.3600        16
    45.4000        44
    45.4400        30
    45.4800        34
    45.5200        30
    45.5600        34
    45.6000        22
    45.6400        12
    45.6800        10
    45.7200        10
    45.7600         4
    45.8000         8
    45.8400        10
    45.8800        12
    45.9200         8
    45.9600         6
    46.0000        14
    46.0400        10
    46.0800        14
    46.1200        16
    46.1600        10
    46.2000        14
    46.2400        10
    46.2800         8
    46.3200        14
    46.3600        14
    46.4000        22
    46.4400        24
    46.4800        32
    46.5200        42
    46.5600        58
    46.6000        88
    46.6400       124
    46.6800       176
    46.7200       178
    46.7600       156
    46.8000       172
    46.8400       140
    46.8800       120
    46.9200        80
    46.9600        94
    47.0000        80
    47.0400        76
    47.0800        60
    47.1200        62
    47.1600        76
    47.2000        74
    47.2400       102
    47.2800       118
    47.3200       102
    47.3600       100
    47.4000        72
    47.4400        50
    47.4800        52
    47.5200        44
    47.5600        32
    47.6000        24
    47.6400        18
    47.6800        22
    47.7200        18
    47.7600        20
    47.8000        12
    47.8400        16
    47.8800        28
    47.9200        20
    47.9600        20
    48.0000        14
    48.0400        20
    48.0800        42
    48.1200        70
    48.1600       110
    48.2000       118
    48.2400        98
    48.2800        78
    48.3200        74
    48.3600        52
    48.4000        24
    48.4400        16
    48.4800        20
    48.5200        26
    48.5600        36
    48.6000        32
    48.6400        22
    48.6800        28
    48.7200        24
    48.7600        22
    48.8000        16
    48.8400        34
    48.8800        60
    48.9200        46
    48.9600        34
    49.0000        42
    49.0400        32
    49.0800        40
    49.1200        18
    49.1600        16
    49.2000        24
    49.2400        22
    49.2800        34
    49.3200        26
    49.3600        30
    49.4000        34
    49.4400        20
    49.4800        28
    49.5200        20
    49.5600        18
    49.6000        22
    49.6400        12
    49.6800        12
    49.7200        12
    49.7600         8
    49.8000        16
    49.8400        10
    49.8800        10
    49.9200         4
    49.9600         8
    50.0000        16
    50.0400        12
    50.0800        10
    50.1200        18
    50.1600        14
    50.2000        12
    50.2400        14
    50.2800        12
    50.3200        18
    50.3600        10
    50.4000        12
    50.4400        10
    50.4800        14
    50.5200        14
    50.5600         8
    50.6000         6
    50.6400        12
    50.6800        18
    50.7200         8
    50.7600        10
    50.8000        18
    50.8400        26
    50.8800        16
    50.9200        16
    50.9600        18
    51.0000        16
    51.0400        26
    51.0800        20
    51.1200        10
    51.1600        24
    51.2000        16
    51.2400        12
    51.2800        14
    51.3200        22
    51.3600        16
    51.4000        14
    51.4400        16
    51.4800        10
    51.5200        16
    51.5600        14
    51.6000        12
    51.6400        14
    51.6800        12
    51.7200        10
    51.7600         6
    51.8000        14
    51.8400        22
    51.8800        20
    51.9200        26
    51.9600        20
    52.0000        14
    52.0400         8
    52.0800        18
    52.1200        14
    52.1600         8
    52.2000        18
    52.2400        12
    52.2800        10
    52.3200        10
    52.3600         6
    52.4000        10
    52.4400        10
    52.4800        12
    52.5200        14
    52.5600        14
    52.6000        10
    52.6400        12
    52.6800        18
    52.7200        20
    52.7600        34
    52.8000        46
    52.8400        68
    52.8800        84
    52.9200        74
    52.9600        80
    53.0000        58
    53.0400        64
    53.0800        50
    53.1200        40
    53.1600        40
    53.2000        30
    53.2400        16
    53.2800        18
    53.3200        10
    53.3600        12
    53.4000        12
    53.4400        14
    53.4800        14
    53.5200        10
    53.5600         8
    53.6000        12
    53.6400         4
    53.6800        18
    53.7200        10
    53.7600        18
    53.8000        18
    53.8400        20
    53.8800        26
    53.9200        44
    53.9600        38
    54.0000        46
    54.0400        94
    54.0800       152
    54.1200       192
    54.1600       182
    54.2000       156
    54.2400       152
    54.2800       150
    54.3200       110
    54.3600        96
    54.4000        80
    54.4400        56
    54.4800        38
    54.5200        36
    54.5600        38
    54.6000        24
    54.6400        22
    54.6800        12
    54.7200        16
    54.7600        14
    54.8000        14
    54.8400        12
    54.8800        12
    54.9200        10
    54.9600        12
    55.0000         6
    55.0400         6
    55.0800         8
    55.1200        10
    55.1600         4
    55.2000        10
    55.2400        10
    55.2800         6
    55.3200         6
    55.3600         6
    55.4000         4
    55.4400         8
    55.4800         8
    55.5200         8
    55.5600         4
    55.6000        12
    55.6400         6
    55.6800         2
    55.7200         6
    55.7600         6
    55.8000        12
    55.8400         8
    55.8800         4
    55.9200         6
    55.9600        10
    56.0000         8
    56.0400         6
    56.0800        10
    56.1200        22
    56.1600        18
    56.2000        28
    56.2400         8
    56.2800        18
    56.3200        16
    56.3600         8
    56.4000        14
    56.4400         8
    56.4800         4
    56.5200         4
    56.5600         2
    56.6000         2
    56.6400         2
    56.6800         2
    56.7200         8
    56.7600         8
    56.8000         4
    56.8400         4
    56.8800         8
    56.9200         6
    56.9600         6
    57.0000         6
    57.0400         8
    57.0800         2
    57.1200         4
    57.1600         2
    57.2000        12
    57.2400         4
    57.2800         4
    57.3200         4
    57.3600         4
    57.4000        10
    57.4400         4
    57.4800        10
    57.5200         8
    57.5600         6
    57.6000        10
    57.6400         6
    57.6800        14
    57.7200         6
    57.7600         6
    57.8000         4
    57.8400         2
    57.8800         2
    57.9200         6
    57.9600         2
    58.0000         2
    58.0400         2
    58.0800         4
    58.1200         4
    58.1600         2
    58.2000         6
    58.2400         8
    58.2800         4
    58.3200         2
    58.3600         6
    58.4000         4
    58.4400         2
    58.4800         4
    58.5200         0
    58.5600         2
    58.6000         4
    58.6400         6
    58.6800         2
    58.7200         8
    58.7600        10
    58.8000         2
    58.8400         4
    58.8800         2
    58.9200         8
    58.9600         4
    59.0000         0
    59.0400         6
    59.0800        10
    59.1200        10
    59.1600         2
    59.2000         2
    59.2400         8
    59.2800         6
    59.3200         6
    59.3600         8
    59.4000         6
    59.4400         6
    59.4800        12
    59.5200         2
    59.5600        12
    59.6000         4
    59.6400         4
    59.6800         0
    59.7200         6
    59.7600         6
    59.8000         8
    59.8400        20
    59.8800        10
    59.9200        10
    59.9600         2
    60.0000         8